Acc test

Time, Pressure, TempC, Height, AccX, AccY, AccZ, AccT, wX, wY, wZ
533, 100507.82, 21.48, 0.00, 0.11, -0.50, 10.07, 10.09, 1.10, 0.18, -64.70
763, 100507.82, 31.74, 0.00, 0.05, -0.53, 10.04, 10.05, -0.06, -0.67, 0.79
1037, 100507.82, 28.32, 0.00, 0.05, -0.55, 10.01, 10.02, -0.18, -0.73, 0.73
1267, 100507.82, 36.62, 0.00, 0.07, -0.55, 10.02, 10.03, -0.85, -2.56, 0.55
1541, 100507.82, 21.00, 0.00, -0.04, -0.88, 8.95, 8.99, -1.04, 0.98, 0.79
1771, 100507.82, 35.16, 0.00, -0.02, -0.61, 9.88, 9.90, -0.06, 0.92, 0.98
2045, 100507.82, 16.60, 0.00, 0.10, -0.60, 10.00, 10.02, 0.00, -0.79, 0.73
2344, 100616.32, 16.11, -0.06, 0.14, -0.56, 10.02, 10.04, 0.49, 2.62, 0.79
2618, 100507.82, 23.44, 0.00, 0.12, -0.61, 10.00, 10.02, -0.12, -0.85, 0.67
2849, 100507.82, 40.04, 0.00, 0.13, -0.60, 10.02, 10.03, -0.12, -0.85, 0.79
3123, 100507.82, 39.55, 0.00, 0.14, -0.60, 10.01, 10.02, -0.12, -0.79, 0.73
3353, 100507.82, 32.71, 0.00, 0.12, -0.60, 10.01, 10.02, 1.83, 3.48, 1.10
3625, 100507.82, 22.46, 0.00, -0.16, -0.73, 9.42, 9.45, 0.00, -0.98, 3.60
3859, 100616.32, 32.71, -0.06, 0.11, -0.61, 10.03, 10.05, -0.61, -1.83, 0.61
4132, 100507.82, 16.60, 0.00, 0.10, -0.61, 9.95, 9.97, -0.24, -0.98, 0.73
4363, 100507.82, 16.60, 0.00, 0.11, -0.62, 9.96, 9.98, 6.53, 5.31, -10.19
4636, 100507.82, 26.86, 0.00, 1.12, 1.31, 7.66, 7.85, 24.90, 29.42, 0.85
4867, 100507.82, 22.46, 0.00, -1.24, -1.88, 10.81, 11.04, -60.36, 39.98, -7.02
5140, 100616.32, 34.67, -0.06, 1.09, 0.39, 7.80, 7.88, -9.77, -4.46, 10.44
5376, 100616.32, 42.48, -0.06, 0.66, -0.90, 9.59, 9.65, 8.54, 9.16, 24.54
5647, 100507.82, 27.34, 0.00, 1.14, -0.38, 11.10, 11.16, -0.31, -8.06, 1.59
5945, 100616.32, 16.60, -0.06, -0.05, -1.48, 10.17, 10.28, -33.33, 45.23, -5.00
6218, 100616.32, 37.11, -0.06, 0.54, -2.13, 10.48, 10.71, 28.93, -15.63, 9.52
6545, 100507.82, 22.46, 0.00, 0.17, -1.35, 9.03, 9.13, 0.18, 10.62, 14.22
6817, 100507.82, 18.07, 0.00, 0.66, -0.60, 9.60, 9.64, 17.27, -10.07, -11.72
7144, 100616.32, 35.64, -0.06, 1.20, -0.88, 10.72, 10.83, -11.35, 4.64, 2.50
7419, 100616.32, 20.02, -0.06, 0.08, -0.32, 10.59, 10.59, 1.04, 9.70, -8.06
7650, 100616.32, 25.39, -0.06, -0.23, -1.48, 9.49, 9.61, -18.13, -23.68, -0.79
7924, 100616.32, 20.51, -0.06, -0.38, -0.22, 9.56, 9.57, -10.01, 6.23, 4.88
8243, 100507.82, 16.11, 0.00, 0.58, -0.21, 10.38, 10.40, 18.68, -6.04, 1.04
8515, 100507.82, 36.62, 0.00, 0.11, -0.75, 10.09, 10.12, 1.59, 10.19, 4.94
8842, 100616.32, 16.11, -0.06, -0.85, -0.29, 10.49, 10.53, -20.75, 14.22, -3.66
9115, 100507.82, 16.60, 0.00, 0.47, -0.92, 10.15, 10.20, 7.57, -6.29, 5.98
9444, 100616.32, 30.27, -0.06, -0.03, -1.00, 9.19, 9.25, 5.31, -15.75, 2.50
9716, 100616.32, 16.11, -0.06, 0.33, -0.35, 11.03, 11.04, -13.37, 7.08, 6.65
10041, 100507.82, 39.55, 0.00, 0.67, -0.78, 9.73, 9.79, 30.82, -8.79, 6.59
10313, 100616.32, 19.53, -0.06, -0.22, -1.09, 9.69, 9.76, -11.72, 3.60, 9.03
10641, 100507.82, 16.11, 0.00, -0.35, -1.56, 10.52, 10.64, -14.04, 2.32, 3.05
10913, 100616.32, 42.97, -0.06, 0.54, -0.97, 8.69, 8.76, -7.69, 20.20, 28.32
11240, 100507.82, 40.53, 0.00, 0.06, -0.61, 9.07, 9.09, -15.32, 36.19, -5.00
11514, 100507.82, 16.11, 0.00, -0.62, -0.94, 10.28, 10.34, 21.12, -3.42, 6.29
11839, 100616.32, 39.55, -0.06, 0.52, -0.87, 9.91, 9.96, -12.33, -0.24, 2.62
12112, 100507.82, 16.11, 0.00, -0.17, -1.14, 10.55, 10.61, 3.48, -1.71, 5.13
12438, 100616.32, 19.53, -0.06, -0.24, -1.08, 10.45, 10.51, 1.89, 4.88, -1.59
12711, 100507.82, 41.99, 0.00, 0.01, -0.57, 9.98, 9.99, -10.62, 3.36, 10.62
13038, 100507.82, 42.97, 0.00, -0.44, -0.65, 10.29, 10.32, 17.03, -11.66, 39.31
13314, 100507.82, 27.83, 0.00, -0.21, -0.43, 9.86, 9.87, 2.01, -8.61, -2.01
13637, 100507.82, 40.04, 0.00, -0.31, -0.41, 9.88, 9.89, 9.70, 4.03, -1.65
13910, 100507.82, 28.81, 0.00, -0.29, -0.38, 9.93, 9.95, -9.28, -1.46, 4.39
14236, 100507.82, 40.53, 0.00, -0.29, -0.41, 10.04, 10.05, -6.04, 6.77, 5.25
14509, 100616.32, 41.50, -0.06, -0.31, -0.38, 9.90, 9.91, 5.07, -2.50, -1.28
14836, 100507.82, 16.11, 0.00, -0.30, -0.41, 10.04, 10.06, 4.58, -4.21, -1.16
15109, 100507.82, 19.53, 0.00, -0.31, -0.40, 9.97, 9.98, -5.19, 4.33, 0.92
15437, 100616.32, 17.09, -0.06, -0.31, -0.39, 10.00, 10.01, -6.53, 0.06, 0.73
15711, 100616.32, 22.95, -0.06, -0.30, -0.39, 9.99, 10.00, 5.68, -3.48, -0.43
16035, 100507.82, 19.04, 0.00, -0.31, -0.39, 9.99, 10.00, 4.94, -4.27, -0.55
16308, 100507.82, 38.57, 0.00, -0.30, -0.40, 9.99, 10.00, -3.97, 1.71, 0.98
16634, 100507.82, 41.02, 0.00, -0.31, -0.39, 9.98, 9.99, -5.31, 2.38, 1.22
16906, 100616.32, 41.02, -0.06, -0.31, -0.39, 9.99, 10.00, 2.69, -3.48, 0.24
17236, 100507.82, 19.04, 0.00, -0.32, -0.40, 9.99, 10.00, 7.26, -5.92, 1.10
17509, 100507.82, 18.55, 0.00, -0.74, -0.46, 9.47, 9.51, -2.38, -18.31, 9.70
17832, 100507.82, 35.64, 0.00, -0.45, -0.36, 9.79, 9.80, -2.69, 26.55, 25.63
18106, 100507.82, 37.11, 0.00, -0.35, -0.82, 9.86, 9.90, -12.02, -2.69, -18.68
18433, 100507.82, 27.34, 0.00, -0.71, -0.78, 9.87, 9.93, 9.70, 4.88, -0.98
18705, 100507.82, 21.97, 0.00, 0.44, -1.35, 10.21, 10.30, -5.68, -11.23, 8.18
19032, 100616.32, 20.02, -0.06, 0.33, -1.52, 10.01, 10.13, -17.15, -15.63, -1.89
19307, 100507.82, 41.50, 0.00, 1.30, -2.51, 9.75, 10.15, -9.03, -19.84, 4.58
19632, 100507.82, 41.50, 0.00, 1.76, -2.14, 9.71, 10.10, 12.33, -18.62, 5.92
19904, 100507.82, 42.97, 0.00, 1.74, -2.17, 9.89, 10.27, 5.19, 2.93, 17.58
20231, 100507.82, 19.53, 0.00, 1.89, -1.77, 9.32, 9.67, 5.43, 3.72, 3.17
20503, 100507.82, 21.48, 0.00, 2.38, -2.65, 9.62, 10.26, -7.14, -2.93, -7.57
20830, 100507.82, 42.48, 0.00, 2.82, -2.26, 9.39, 10.07, 1.59, -9.28, 15.87
21105, 100507.82, 32.71, 0.00, 3.07, -4.06, 8.80, 10.17, -38.21, -17.76, -10.74
21430, 100507.82, 39.55, 0.00, 4.43, -3.67, 7.75, 9.65, -18.74, -29.11, 17.33
21702, 100507.82, 18.07, 0.00, 3.09, -3.31, 8.66, 9.77, 36.44, 32.35, -14.16
22029, 100616.32, 41.50, -0.06, 3.12, -2.61, 9.14, 10.01, 28.87, 17.76, 17.52
22302, 100507.82, 40.53, 0.00, 1.82, -2.62, 9.84, 10.35, 5.00, -9.83, 22.46
22628, 100507.82, 19.04, 0.00, 2.30, -2.11, 9.59, 10.09, 20.32, 4.82, 43.15
22901, 100616.32, 42.97, -0.06, 2.00, -1.48, 9.48, 9.81, -5.07, -4.27, 28.69
23231, 100507.82, 26.86, 0.00, 2.34, -1.19, 9.55, 9.91, -2.93, 3.23, -6.10
23502, 100507.82, 36.62, 0.00, 1.80, -1.78, 9.61, 9.94, -2.14, 2.38, 1.16
23827, 100507.82, 16.60, 0.00, 1.78, -2.34, 9.76, 10.19, -2.44, 4.21, -6.90
24099, 100507.82, 42.97, 0.00, 1.47, -2.43, 9.78, 10.18, -4.03, 0.98, -20.08
24426, 100507.82, 25.39, 0.00, 2.03, -2.51, 9.86, 10.37, -9.34, -4.82, -21.97
24699, 100507.82, 39.06, 0.00, 4.27, -3.84, 8.78, 10.49, -41.02, -51.03, -6.77
25026, 100507.82, 31.74, 0.00, 4.30, -3.41, 8.05, 9.74, -14.53, -25.15, 8.85
25300, 100507.82, 41.50, 0.00, 5.05, -4.80, 5.88, 9.12, -10.44, -18.43, 7.26
25625, 100616.32, 23.44, -0.06, 5.02, -4.43, 6.41, 9.27, 3.78, 2.75, 3.60
25899, 100616.32, 22.46, -0.06, 5.45, -5.40, 5.63, 9.52, -4.39, 1.22, 0.49
26225, 100507.82, 26.86, 0.00, 5.63, -4.87, 6.29, 9.74, 4.82, 7.26, 4.88
26498, 100616.32, 18.55, -0.06, 5.25, -4.86, 7.36, 10.26, 12.70, 11.35, 0.49
26824, 100507.82, 41.99, 0.00, 5.44, -4.57, 7.15, 10.08, 10.50, 7.57, 1.83
27100, 100507.82, 42.97, 0.00, 4.89, -4.57, 7.07, 9.73, -3.85, -0.92, -2.69
27423, 100616.32, 37.11, -0.06, 4.78, -4.73, 7.37, 9.98, -3.54, -3.60, -1.28
27697, 100507.82, 16.11, 0.00, 4.70, -4.62, 7.13, 9.71, -4.64, -4.94, -1.95
28023, 100507.82, 23.44, 0.00, 4.97, -4.60, 6.81, 9.61, 1.53, 0.18, -1.40
28296, 100507.82, 41.50, 0.00, 5.17, -4.93, 7.22, 10.15, -0.37, -1.65, -1.40
28622, 100507.82, 41.50, 0.00, 4.93, -4.63, 7.26, 9.93, -0.98, -1.34, 3.66
28895, 100616.32, 26.37, -0.06, 5.02, -4.66, 7.27, 9.99, 0.67, -0.37, 2.81
29224, 100507.82, 21.00, 0.00, 4.94, -4.66, 7.40, 10.04, 0.18, -0.49, -0.49
29497, 100616.32, 25.88, -0.06, 0.01, -1.58, 11.56, 11.67, 61.65, 226.99, 24.17
29821, 100616.32, 34.18, -0.06, -0.68, -0.83, 9.66, 9.72, 64.09, 98.69, 92.59
30095, 100616.32, 16.11, -0.06, -0.45, -0.49, 8.97, 9.00, -7.75, -18.86, -71.96
30420, 100507.82, 41.02, 0.00, -1.09, -0.73, 8.58, 8.68, -59.75, -69.52, -21.73
30694, 100507.82, 17.58, 0.00, 0.04, -0.39, 7.97, 7.98, -107.91, -49.13, -72.63
31023, 100507.82, 42.48, 0.00, -0.14, -0.57, 8.70, 8.72, 34.73, 1.77, -78.37
31295, 100507.82, 17.58, 0.00, -0.13, -0.26, 14.47, 14.47, 136.11, 107.06, 36.99
31620, 100507.82, 23.44, 0.00, 0.04, -0.10, 8.45, 8.45, 108.64, 23.50, -49.93
31892, 100507.82, 20.51, 0.00, -0.13, -0.82, 15.96, 15.98, -175.05, -108.83, 64.76
32219, 100507.82, 42.97, 0.00, 0.15, -0.35, 13.35, 13.35, -146.24, -103.70, 4.46
32492, 100507.82, 41.99, 0.00, -0.35, -1.36, 13.99, 14.06, 134.22, 129.39, 89.66
32818, 100507.82, 31.25, 0.00, -0.22, -0.92, 13.81, 13.85, 126.46, 130.68, 105.16
33093, 100507.82, 17.58, 0.00, -0.93, -1.08, 11.38, 11.47, -84.59, -95.76, -9.70
33418, 100507.82, 23.93, 0.00, -0.74, -1.04, 14.40, 14.45, -115.78, -118.35, 63.72
33690, 100507.82, 36.62, 0.00, -0.46, -0.89, 8.42, 8.48, 28.93, 50.72, -62.87
34017, 100507.82, 38.09, 0.00, -0.67, -1.18, 11.04, 11.13, 100.22, 77.82, 5.37
34289, 100507.82, 36.13, 0.00, -0.32, -1.28, 14.39, 14.45, 108.95, 140.69, 92.59
34521, 100616.32, 30.27, -0.06, -0.09, -0.22, 6.36, 6.37, 21.73, 47.91, -67.87
34797, 100507.82, 42.48, 0.00, -0.10, -0.48, 14.11, 14.12, -138.61, -88.50, 41.87
35116, 100507.82, 38.57, 0.00, 0.12, -0.34, 12.02, 12.03, -98.88, -92.96, -14.10
35389, 100616.32, 32.71, -0.06, -0.41, -1.13, 13.75, 13.81, 117.37, 132.32, 66.96
35716, 100507.82, 17.09, 0.00, -0.18, -0.85, 12.75, 12.78, 142.52, 84.47, 73.36
35989, 100616.32, 41.02, -0.06, -0.77, -0.91, 12.84, 12.89, -68.48, -112.92, -21.85
36315, 100616.32, 21.00, -0.06, -0.54, -0.94, 14.26, 14.31, -116.39, -150.76, 19.84
36591, 100507.82, 36.13, 0.00, -0.11, -0.47, 9.02, 9.03, 40.89, 85.82, -34.18
36914, 100507.82, 42.97, 0.00, -0.32, -0.88, 11.48, 11.52, 79.59, 106.08, -27.34
37187, 100507.82, 42.97, 0.00, -0.17, -0.01, 8.80, 8.80, 8.18, 19.84, 8.18
37513, 100507.82, 36.62, 0.00, -0.35, -0.30, 8.34, 8.35, -61.77, -59.20, -25.09
37786, 100507.82, 16.11, 0.00, -0.31, -0.59, 10.07, 10.09, -49.38, -49.26, 17.88
38113, 100507.82, 21.48, 0.00, -0.17, -0.37, 8.31, 8.32, -16.36, -24.72, 24.17
38385, 100507.82, 16.11, 0.00, -0.45, -0.80, 13.63, 13.66, 94.24, 126.34, -9.16
38710, 100616.32, 16.11, -0.06, -0.60, -0.45, 9.78, 9.81, 72.75, 23.93, -2.50
38983, 100507.82, 40.04, 0.00, -0.30, -0.77, 14.35, 14.37, -118.41, -101.44, 5.49
39312, 100616.32, 42.97, -0.06, -0.20, -0.45, 11.89, 11.90, -84.29, -93.93, -11.17
39584, 100507.82, 16.11, 0.00, -0.33, -0.92, 12.83, 12.87, 108.70, 111.69, 31.98
39911, 100616.32, 34.67, -0.06, -0.39, -0.71, 14.11, 14.13, 85.33, 107.42, 45.90
40184, 100507.82, 20.02, 0.00, -0.39, -0.56, 11.01, 11.03, -73.49, -81.73, -35.22
40513, 100507.82, 42.48, 0.00, -0.58, -0.80, 12.60, 12.64, -109.62, -104.98, -18.74
40785, 100507.82, 34.18, 0.00, -0.11, -0.44, 9.57, 9.58, 44.68, 57.62, -5.74
41109, 100507.82, 16.11, 0.00, -0.23, -0.56, 11.25, 11.27, 99.06, 49.68, -22.22
41382, 100507.82, 22.95, 0.00, -0.41, -0.33, 9.19, 9.21, 9.77, 19.23, 18.31
41709, 100507.82, 42.97, 0.00, -0.41, -0.27, 8.35, 8.36, -35.28, -48.16, 12.33
41981, 100507.82, 24.90, 0.00, -0.27, -0.56, 10.95, 10.97, -47.67, -56.64, -27.40
42311, 100616.32, 38.09, -0.06, -0.28, -0.39, 9.01, 9.02, -26.49, -9.22, -24.66
42584, 100616.32, 19.04, -0.06, -0.36, -0.59, 12.88, 12.90, 103.03, 80.87, 27.16
42908, 100507.82, 29.79, 0.00, -0.34, -0.23, 10.43, 10.44, 51.45, 43.15, 5.37
43181, 100616.32, 22.95, -0.06, -0.41, -0.80, 13.09, 13.12, -98.02, -106.26, 5.13
43507, 100616.32, 17.09, -0.06, -0.32, -0.63, 11.69, 11.71, -84.59, -81.79, 17.03
43782, 100507.82, 39.06, 0.00, -0.29, -0.76, 12.21, 12.23, 73.61, 104.61, -16.36
44109, 100507.82, 17.58, 0.00, -0.48, -0.75, 12.31, 12.34, 84.17, 84.96, 0.43
44382, 100507.82, 41.02, 0.00, -0.43, -0.52, 11.61, 11.63, -71.23, -68.42, 6.59
44705, 100507.82, 20.02, 0.00, -0.44, -0.55, 12.42, 12.44, -95.40, -90.58, 2.75
44979, 100616.32, 42.97, -0.06, -0.36, -0.67, 10.47, 10.50, 46.33, 29.66, -7.08
45305, 100507.82, 42.97, 0.00, -0.35, -0.62, 11.01, 11.03, 76.23, 65.73, 8.12
45578, 100507.82, 41.02, 0.00, -0.36, -0.22, 9.57, 9.58, 15.93, -2.56, 0.31
45904, 100616.32, 16.11, -0.06, -0.45, -0.33, 9.78, 9.80, -46.33, -29.91, -12.02
46180, 100507.82, 37.60, 0.00, -0.33, -0.55, 10.61, 10.63, -33.57, -49.32, -3.23
46503, 100507.82, 16.60, 0.00, -0.36, -0.47, 9.23, 9.25, -18.13, 1.71, 7.57
46776, 100616.32, 17.09, -0.06, -0.35, -0.46, 10.87, 10.89, 62.68, 71.04, 8.73
47104, 100507.82, 32.23, 0.00, -0.42, -0.41, 9.52, 9.54, 45.72, 43.09, 4.94
47376, 100507.82, 37.60, 0.00, -0.41, -0.63, 12.41, 12.43, -96.19, -80.08, -10.01
47703, 100616.32, 16.60, -0.06, -0.35, -0.59, 11.63, 11.65, -65.06, -70.80, -9.46
47978, 100616.32, 33.20, -0.06, -0.34, -0.64, 11.69, 11.71, 64.58, 77.94, 9.89
48303, 100507.82, 24.41, 0.00, -0.30, -0.64, 11.39, 11.42, 105.10, 74.65, 10.01
48575, 100616.32, 42.97, -0.06, -0.43, -0.45, 10.36, 10.37, -59.27, -72.81, -5.92
48902, 100507.82, 16.11, 0.00, -0.38, -0.55, 12.13, 12.15, -79.90, -76.90, -8.48
49175, 100616.32, 39.55, -0.06, -0.27, -0.54, 10.17, 10.19, 53.47, 32.90, 8.24
49501, 100616.32, 40.53, -0.06, -0.30, -0.50, 10.86, 10.87, 65.37, 64.64, 8.18
49776, 100507.82, 42.48, 0.00, -0.38, -0.30, 8.41, 8.42, -0.18, -24.11, -2.50
50100, 100507.82, 41.02, 0.00, -0.37, -0.33, 9.24, 9.26, -41.26, -29.42, -4.33
50372, 100507.82, 18.07, 0.00, -0.33, -0.44, 9.91, 9.93, -15.81, -33.26, 5.25
50699, 100616.32, 33.69, -0.06, -0.28, -0.39, 9.25, 9.27, -5.68, 12.88, 7.32
50972, 100507.82, 26.37, 0.00, -0.37, -0.41, 10.07, 10.09, 52.55, 39.92, -1.16
51299, 100507.82, 39.06, 0.00, -0.37, -0.36, 8.97, 8.99, 27.47, 38.82, -2.69
51571, 100507.82, 42.97, 0.00, -0.36, -0.52, 11.15, 11.17, -80.26, -66.35, 10.07
51901, 100616.32, 20.51, -0.06, -0.26, -0.47, 10.13, 10.14, -56.58, -51.09, 6.59
52173, 100507.82, 19.53, 0.00, -0.43, -0.63, 11.54, 11.56, 58.35, 70.80, 3.78
52497, 100507.82, 16.60, 0.00, -0.40, -0.61, 11.04, 11.07, 80.32, 73.79, 11.41
52770, 100616.32, 29.30, -0.06, -0.41, -0.45, 10.28, 10.30, -67.87, -62.93, -1.59
53097, 100507.82, 34.18, 0.00, -0.36, -0.51, 11.21, 11.22, -66.16, -71.78, -3.60
53370, 100507.82, 32.71, 0.00, -0.27, -0.48, 10.05, 10.06, 43.82, 37.05, 1.28
53698, 100507.82, 42.48, 0.00, -0.33, -0.53, 10.64, 10.66, 62.50, 59.57, 2.56
53970, 100507.82, 23.44, 0.00, -0.42, -0.32, 8.91, 8.93, -12.94, -22.52, -4.70
54295, 100507.82, 36.13, 0.00, -0.45, -0.45, 9.80, 9.82, -37.35, -38.27, -2.69
54568, 100507.82, 21.97, 0.00, -0.31, -0.41, 9.97, 9.99, -4.46, -10.50, -0.31
54894, 100616.32, 42.48, -0.06, -0.30, -0.43, 9.93, 9.95, 17.76, 18.07, -3.36
55168, 100507.82, 33.20, 0.00, -0.45, -0.47, 9.82, 9.85, 32.96, 33.51, 3.97
55494, 100507.82, 39.55, 0.00, -0.44, -0.34, 8.99, 9.01, 13.79, 8.85, 8.79
55769, 100616.32, 34.67, -0.06, -0.35, -0.50, 10.90, 10.91, -58.90, -54.87, 2.26
56094, 100507.82, 22.95, 0.00, -0.33, -0.43, 10.48, 10.50, -32.10, -31.92, -0.79
56367, 100507.82, 17.58, 0.00, -0.37, -0.54, 10.92, 10.94, 63.72, 60.00, -4.46
56692, 100507.82, 16.60, 0.00, -0.37, -0.44, 10.22, 10.23, 55.05, 46.69, -5.62
56966, 100507.82, 29.30, 0.00, -0.42, -0.47, 11.08, 11.10, -56.21, -60.85, 11.60
57292, 100507.82, 33.20, 0.00, -0.38, -0.49, 11.16, 11.18, -68.18, -57.31, 10.86
57568, 100616.32, 39.55, -0.06, -0.34, -0.54, 10.38, 10.40, 53.28, 36.07, -11.72
57891, 100616.32, 38.09, -0.06, -0.34, -0.54, 10.90, 10.91, 58.17, 58.53, -4.88
58166, 100507.82, 21.00, 0.00, -0.40, -0.33, 9.53, 9.55, -22.03, -29.97, 2.14
58490, 100507.82, 22.46, 0.00, -0.44, -0.41, 10.50, 10.52, -55.97, -44.74, 0.67
58764, 100507.82, 41.50, 0.00, -0.31, -0.42, 10.01, 10.02, 11.66, 2.26, 1.65
59089, 100616.32, 16.60, -0.06, -0.31, -0.41, 9.97, 9.98, 23.07, 27.77, -0.06
59365, 100507.82, 17.09, 0.00, -0.43, -0.37, 9.39, 9.41, 20.20, 17.33, -5.19
59689, 100616.32, 31.25, -0.06, -0.45, -0.40, 9.27, 9.29, -7.39, -1.04, 0.31
59962, 100616.32, 19.53, -0.06, -0.28, -0.33, 10.29, 10.30, -33.08, -35.89, -4.52
60290, 100616.32, 42.48, -0.06, -0.30, -0.41, 10.12, 10.13, -17.27, -10.99, -14.10
60563, 100507.82, 37.11, 0.00, -0.44, -0.49, 10.71, 10.73, 49.68, 42.24, 11.78
60888, 100616.32, 16.60, -0.06, -0.40, -0.38, 9.95, 9.96, 28.20, 37.35, 12.08
61161, 100507.82, 19.53, 0.00, -0.40, -0.44, 10.80, 10.82, -60.00, -51.51, 1.04
61490, 100507.82, 38.57, 0.00, -0.35, -0.45, 10.64, 10.65, -46.51, -41.99, -2.75
61762, 100507.82, 38.57, 0.00, -0.33, -0.48, 10.53, 10.54, 46.57, 47.67, -3.36
62087, 100616.32, 29.30, -0.06, -0.39, -0.49, 10.62, 10.64, 47.49, 53.59, -3.05
62360, 100507.82, 41.99, 0.00, -0.45, -0.42, 9.83, 9.85, -43.82, -36.80, 10.56
62686, 100507.82, 22.46, 0.00, -0.42, -0.45, 10.60, 10.62, -44.13, -48.16, 11.84
62959, 100507.82, 21.97, 0.00, -0.36, -0.46, 9.99, 10.00, 24.54, 17.33, -10.38
63288, 100507.82, 41.50, 0.00, -0.36, -0.47, 10.51, 10.52, 39.98, 35.83, -8.24
63560, 100507.82, 16.60, 0.00, -0.42, -0.37, 9.43, 9.44, 0.18, -1.89, 9.40
63885, 100616.32, 29.79, -0.06, -0.41, -0.36, 9.62, 9.64, -23.86, -21.06, 7.63
64158, 100616.32, 36.13, -0.06, -0.34, -0.41, 10.08, 10.10, -18.31, -21.42, -5.19
64485, 100616.32, 36.13, -0.06, -0.35, -0.44, 10.07, 10.09, 5.43, 1.59, -6.35
64758, 100507.82, 16.11, 0.00, 0.22, -0.74, 9.27, 9.31, -1.65, 2.56, -15.44
65084, 100507.82, 41.99, 0.00, -0.46, -0.55, 10.02, 10.04, -0.06, 22.89, 12.33
65358, 100507.82, 16.60, 0.00, -0.31, -0.36, 10.34, 10.35, -2.26, -11.66, 8.54
65683, 100616.32, 42.97, -0.06, 0.00, -0.33, 10.13, 10.14, 11.05, 13.55, 7.69
65956, 100507.82, 19.04, 0.00, -0.20, -0.84, 10.19, 10.22, -9.95, 4.64, 0.98
66282, 100507.82, 16.11, 0.00, -0.66, -0.71, 9.95, 10.00, 6.10, -3.97, 6.35
66554, 100616.32, 16.11, -0.06, -0.31, -0.59, 10.16, 10.18, 5.07, 19.29, -30.88
66882, 100507.82, 42.48, 0.00, 0.23, 0.78, 10.76, 10.79, 6.10, 25.02, 9.22
67158, 100507.82, 17.09, 0.00, -0.02, -0.05, 10.04, 10.04, 14.65, 3.42, -1.71
67481, 100507.82, 21.97, 0.00, -0.14, 0.58, 9.77, 9.79, 16.85, 8.42, -5.49
67753, 100507.82, 16.60, 0.00, 0.09, 0.09, 9.75, 9.75, -1.34, 4.27, 11.66
68080, 100507.82, 32.71, 0.00, 0.66, -0.34, 10.00, 10.03, 2.62, -18.07, -9.89
68353, 100507.82, 41.02, 0.00, -0.43, -0.26, 10.35, 10.36, -0.12, -4.52, -4.39
68680, 100616.32, 17.58, -0.06, 0.20, 0.34, 10.10, 10.10, -2.14, -2.62, 14.22
68954, 100507.82, 37.11, 0.00, -0.29, 0.28, 10.67, 10.68, 2.87, -3.72, 0.98
69297, 100507.82, 42.97, 0.00, -0.27, -0.28, 9.68, 9.69, 1.71, 10.07, -0.55
69570, 100507.82, 23.44, 0.00, -0.11, 0.44, 9.60, 9.61, -8.18, 1.77, -5.49
69878, 100507.82, 42.48, 0.00, -0.11, 0.09, 9.65, 9.65, 6.96, -7.39, -1.89
70151, 100507.82, 16.11, 0.00, -0.43, 1.10, 9.08, 9.16, -9.03, -1.10, 0.00
70477, 100507.82, 39.06, 0.00, 0.33, 0.08, 11.00, 11.00, 4.94, 6.41, -0.67
70750, 100507.82, 22.46, 0.00, 1.60, -0.53, 9.24, 9.39, 28.38, -0.12, -2.08
71079, 100507.82, 42.48, 0.00, 3.45, 1.29, 18.50, 18.86, -15.99, 6.04, -6.96
71352, 100507.82, 22.95, 0.00, 1.00, -2.00, 9.90, 10.15, -0.12, -0.92, 4.82
71676, 100616.32, 16.11, -0.06, 0.09, -0.87, 9.95, 9.99, -0.06, -1.34, 7.02
71949, 100616.32, 28.32, -0.06, 0.03, -0.65, 9.97, 9.99, -0.12, -0.55, 0.98
72275, 100616.32, 33.20, -0.06, 0.03, -0.68, 9.98, 10.00, 0.00, -0.67, 0.73
72549, 100507.82, 33.69, 0.00, 0.00, -0.77, 9.95, 9.98, -1.40, -0.61, 1.53
72875, 100507.82, 23.93, 0.00, 0.14, 0.06, 10.02, 10.02, 4.52, -9.89, -1.89
73150, 100507.82, 24.41, 0.00, 0.09, -0.63, 10.00, 10.02, 0.31, -0.92, 0.79
73475, 100507.82, 42.97, 0.00, 0.07, -0.70, 9.99, 10.01, -0.06, -2.20, 0.12
73747, 100616.32, 22.46, -0.06, 0.07, -0.64, 9.99, 10.01, 0.31, -0.92, 1.16
74074, 100507.82, 40.04, 0.00, 0.08, -0.65, 10.00, 10.02, 0.06, -0.73, 0.92
74346, 100507.82, 17.58, 0.00, 0.09, -0.61, 9.98, 10.00, -0.06, 2.01, 0.49

Pressure test

35677, 100507.82, 27.83, 0.00, -0.04, -0.51, 9.99, 10.00, 0.00, 0.00, 0.00
36395, 100616.32, 28.32, -0.06, -0.06, -0.51, 10.00, 10.01, 0.00, 0.00, 0.00
36671, 100616.32, 45.90, -0.06, -0.06, -0.51, 10.00, 10.01, 0.00, 0.00, 0.00
36902, 100507.82, 19.53, 0.00, -0.06, -0.51, 10.00, 10.01, 0.00, 0.00, 0.00
37175, 100616.32, 29.30, -0.06, -0.05, -0.51, 9.99, 10.00, 0.00, 0.00, 0.00
37406, 100507.82, 30.76, 0.00, -0.06, -0.51, 10.00, 10.01, 0.00, 0.00, 0.00
37679, 100616.32, 40.04, -0.06, -0.06, -0.50, 10.00, 10.01, 0.00, 0.00, 0.00
37910, 100616.32, 21.00, -0.06, -0.06, -0.51, 10.00, 10.01, 0.00, 0.00, 0.00
38185, 100507.82, 21.48, 0.00, -0.06, -0.51, 10.00, 10.01, 0.00, 0.00, 0.00
38449, 100616.32, 46.39, -0.06, -0.05, -0.51, 10.00, 10.01, 0.00, 0.00, 0.00
38689, 100616.32, 41.99, -0.06, -0.06, -0.51, 10.01, 10.02, 0.00, 0.00, 0.00
38988, 100616.32, 18.55, -0.06, -0.06, -0.51, 9.99, 10.00, 0.00, 0.00, 0.00
39261, 100616.32, 19.04, -0.06, -0.06, -0.51, 10.00, 10.01, 0.00, 0.00, 0.00
39587, 100616.32, 19.04, -0.06, -0.06, -0.51, 10.00, 10.01, 0.00, 0.00, 0.00
39860, 100616.32, 25.39, -0.06, -0.05, -0.51, 10.00, 10.01, 0.00, 0.00, 0.00
40189, 100616.32, 44.92, -0.06, -0.06, -0.51, 10.00, 10.01, 0.00, 0.00, 0.00
40462, 100616.32, 18.55, -0.06, -0.06, -0.50, 10.01, 10.02, 0.00, 0.00, 0.00
40786, 100616.32, 38.09, -0.06, -0.06, -0.50, 10.00, 10.01, 0.00, 0.00, 0.00
41059, 100616.32, 18.55, -0.06, -0.08, -0.49, 10.10, 10.11, 0.06, -0.06, 0.00
41385, 100616.32, 26.86, -0.06, -0.06, -0.50, 10.03, 10.05, 0.00, 0.00, 0.00
41659, 100616.32, 24.41, -0.06, -0.06, -0.51, 10.00, 10.01, 0.00, 0.00, 0.00
41988, 100616.32, 19.04, -0.06, -0.06, -0.51, 10.00, 10.01, 0.00, 0.00, 0.00
42260, 100616.32, 19.53, -0.06, -0.06, -0.51, 9.99, 10.00, 0.00, 0.00, 0.00
42585, 100616.32, 46.88, -0.06, -0.06, -0.51, 10.00, 10.01, 0.00, 0.00, 0.00
42857, 100616.32, 45.90, -0.06, -0.06, -0.51, 10.00, 10.01, 0.00, 0.00, 0.00
43184, 100616.32, 21.97, -0.06, -0.05, -0.51, 10.01, 10.02, 0.00, 0.00, 0.00
43457, 100616.32, 20.02, -0.06, -0.05, -0.51, 10.00, 10.01, 0.00, 0.00, 0.00
43784, 100616.32, 19.04, -0.06, -0.06, -0.50, 9.99, 10.00, 0.00, 0.00, 0.00
44058, 100616.32, 44.92, -0.06, -0.06, -0.51, 10.00, 10.01, 0.00, 0.00, 0.00
44383, 100616.32, 19.04, -0.06, -0.06, -0.50, 10.00, 10.01, 0.00, 0.00, 0.00
44655, 100616.32, 18.55, -0.06, -0.06, -0.51, 9.99, 10.00, 0.00, 0.00, 0.00
44982, 100616.32, 45.41, -0.06, -0.05, -0.52, 9.97, 9.98, 0.00, 0.00, 0.00
45255, 100616.32, 44.92, -0.06, -0.06, -0.51, 10.00, 10.01, 0.00, 0.00, 0.00
45582, 100507.82, 32.23, 0.00, -0.06, -0.50, 10.01, 10.02, 0.00, 0.00, 0.00
45854, 100507.82, 44.92, 0.00, -0.06, -0.50, 10.00, 10.01, 0.00, 0.00, 0.00
46183, 100616.32, 28.81, -0.06, -0.06, -0.50, 10.00, 10.01, 0.00, 0.00, 0.00
46455, 100616.32, 29.30, -0.06, -0.06, -0.51, 10.01, 10.02, 0.00, 0.00, 0.00
46780, 100616.32, 46.88, -0.06, -0.06, -0.50, 10.01, 10.02, 0.00, 0.00, 0.00
47053, 100507.82, 23.93, 0.00, -0.06, -0.50, 10.00, 10.01, 0.00, 0.00, 0.00
47379, 100616.32, 24.41, -0.06, -0.06, -0.51, 10.00, 10.01, 0.00, 0.00, 0.00
47652, 100616.32, 18.07, -0.06, -0.06, -0.50, 10.00, 10.01, 0.00, 0.00, 0.00
47981, 100616.32, 21.00, -0.06, -0.05, -0.50, 10.00, 10.01, 0.00, 0.00, 0.00
48254, 100616.32, 19.04, -0.06, -0.06, -0.51, 10.00, 10.01, 0.00, 0.00, 0.00
48578, 100616.32, 33.20, -0.06, -0.05, -0.52, 10.00, 10.01, 0.00, 0.00, 0.00
48851, 100616.32, 45.90, -0.06, -0.06, -0.51, 10.00, 10.01, 0.00, 0.00, 0.00
49178, 100616.32, 44.92, -0.06, -0.06, -0.50, 10.01, 10.02, 0.00, 0.00, 0.00
49451, 100616.32, 39.55, -0.06, -0.05, -0.51, 10.00, 10.01, 0.00, 0.00, 0.00
49777, 100616.32, 18.55, -0.06, -0.06, -0.50, 10.00, 10.01, 0.00, 0.00, 0.00
50053, 100507.82, 41.02, 0.00, -0.06, -0.51, 10.00, 10.01, -0.12, -0.06, 0.00
50376, 100507.82, 41.99, 0.00, -0.06, -0.52, 10.00, 10.01, -0.12, 0.00, 0.00
50649, 100399.31, 22.46, 0.06, -0.07, -0.55, 10.01, 10.02, -0.24, 0.00, 0.00
50976, 100399.31, 34.18, 0.06, -0.05, -0.56, 10.00, 10.01, -0.37, 0.00, 0.00
51249, 100290.80, 26.37, 0.12, -0.05, -0.55, 9.98, 10.00, -0.12, 0.00, 0.00
51575, 100290.80, 20.02, 0.12, -0.05, -0.56, 9.98, 9.99, 0.00, 0.00, 0.00
51851, 100182.29, 19.53, 0.18, -0.07, -0.59, 10.01, 10.02, 0.00, 0.00, 0.00
52174, 100182.29, 39.06, 0.18, -0.06, -0.59, 10.00, 10.01, 0.00, 0.00, 0.00
52447, 100182.29, 21.00, 0.18, -0.06, -0.61, 10.01, 10.02, 0.00, 0.00, 0.00
52773, 100073.78, 21.97, 0.24, -0.06, -0.62, 10.00, 10.02, 0.00, 0.00, 0.00
53047, 100073.78, 35.64, 0.24, -0.06, -0.62, 9.99, 10.01, 0.00, 0.00, 0.00
53373, 99965.28, 46.88, 0.30, -0.05, -0.64, 9.99, 10.01, 0.00, 0.00, 0.00
53646, 99965.28, 42.97, 0.30, -0.06, -0.65, 10.00, 10.02, 0.00, 0.00, 0.00
53975, 99965.28, 35.16, 0.30, -0.05, -0.66, 9.99, 10.01, 0.00, 0.00, 0.00
54248, 99856.78, 26.37, 0.36, -0.07, -0.67, 9.98, 10.00, 0.06, 0.00, 0.00
54573, 99856.78, 43.95, 0.36, -0.06, -0.67, 10.00, 10.02, 0.06, 0.00, 0.00
54845, 99748.27, 18.55, 0.42, -0.05, -0.68, 9.99, 10.01, 0.00, 0.00, 0.00
55172, 99748.27, 27.34, 0.42, -0.05, -0.69, 9.99, 10.01, 0.00, 0.00, 0.00
55444, 99748.27, 46.88, 0.42, -0.06, -0.70, 9.98, 10.00, 0.00, 0.00, 0.00
55771, 99639.76, 18.55, 0.48, -0.06, -0.70, 9.97, 9.99, 0.00, 0.00, 0.00
56046, 99639.76, 18.55, 0.48, -0.06, -0.71, 10.01, 10.03, 0.00, 0.00, 0.00
56371, 99531.25, 18.55, 0.54, -0.05, -0.71, 10.00, 10.03, 0.00, 0.00, 0.00
56643, 99531.25, 18.55, 0.54, -0.07, -0.72, 9.97, 10.00, 0.00, 0.00, 0.00
56970, 99422.75, 18.55, 0.60, -0.07, -0.73, 9.98, 10.00, 0.00, 0.00, 0.00
57242, 99422.75, 45.41, 0.60, -0.04, -0.74, 10.00, 10.02, 0.00, 0.00, 0.00
57569, 99422.75, 27.83, 0.60, -0.05, -0.74, 9.99, 10.01, 0.00, 0.00, 0.00
57842, 99314.24, 18.55, 0.66, -0.06, -0.74, 9.99, 10.01, 0.00, 0.00, 0.00
58171, 99314.24, 27.83, 0.66, -0.05, -0.74, 10.00, 10.02, 0.00, 0.00, 0.00
58443, 99314.24, 18.55, 0.66, -0.07, -0.76, 9.97, 10.00, 0.06, 0.00, 0.00
58768, 99314.24, 18.55, 0.66, -0.07, -0.76, 9.99, 10.02, 0.00, 0.00, 0.00
59041, 99205.73, 25.88, 0.72, -0.05, -0.76, 10.00, 10.03, 0.00, 0.00, 0.00
59368, 99205.73, 31.74, 0.72, -0.05, -0.76, 9.99, 10.02, 0.00, 0.00, 0.00
59640, 99097.22, 44.92, 0.78, -0.06, -0.77, 9.96, 9.99, 0.00, -0.12, 1.16
59967, 99097.22, 18.55, 0.78, -0.06, -0.77, 9.97, 10.00, 0.00, 0.00, 0.12
60242, 99097.22, 32.71, 0.78, -0.06, -0.78, 9.98, 10.01, -0.06, -0.06, 0.00
60566, 98988.72, 46.88, 0.84, -0.06, -0.79, 10.00, 10.03, 0.00, 0.00, 0.00
60839, 98988.72, 18.55, 0.84, -0.07, -0.79, 9.96, 9.99, 0.00, 0.00, 0.00
61165, 98988.72, 18.55, 0.84, -0.07, -0.80, 9.99, 10.02, 0.00, 0.00, 0.00
61438, 98988.72, 46.88, 0.84, -0.05, -0.78, 9.97, 10.00, 0.00, 0.00, 0.00
61765, 98988.72, 21.97, 0.84, -0.06, -0.78, 9.97, 10.00, 0.00, 0.00, 0.00
62041, 98988.72, 22.95, 0.84, -0.04, -0.78, 10.01, 10.04, -0.06, -0.06, 0.00
62365, 98880.21, 20.02, 0.90, -0.05, -0.78, 9.98, 10.01, -0.06, -0.12, 0.00
62638, 98880.21, 24.41, 0.90, -0.06, -0.81, 9.98, 10.01, 0.00, 0.06, 0.00
62964, 98880.21, 18.55, 0.90, -0.07, -0.81, 9.98, 10.01, 0.00, 0.00, 0.00
63237, 98880.21, 45.90, 0.90, -0.05, -0.81, 10.00, 10.03, -0.12, 0.00, 0.00
63563, 98771.71, 39.55, 0.96, -0.05, -0.80, 10.00, 10.03, -0.06, 0.00, 0.00
63837, 98663.20, 19.53, 1.02, -0.07, -0.80, 9.95, 9.98, 0.00, -0.06, 0.00
64165, 98663.20, 39.55, 1.02, -0.06, -0.80, 9.92, 9.96, 0.06, 0.00, 0.00
64438, 98663.20, 46.88, 1.02, -0.07, -0.83, 9.97, 10.00, 0.00, 0.06, 0.00
64762, 98554.69, 18.55, 1.08, -0.07, -0.83, 9.97, 10.01, 0.00, 0.12, 0.00