heat test

Time, Pressure, TempC, Height, AccX, AccY, AccZ, AccT, wX, wY, wZ0, 0.00, 0.00
7929, 100507.82, 23.93, 0.06, -0.37, -0.92, 9.97, 10.02, 0.00, 0.00, 0.00
8160, 100507.82, 32.71, 0.06, -0.36, -0.91, 9.92, 9.97, 0.00, 0.00, 0.00
8433, 100616.32, 25.39, 0.00, -0.36, -0.92, 9.95, 10.00, 0.00, 0.00, 0.00
8664, 100616.32, 28.81, 0.00, -0.37, -0.92, 9.97, 10.02, 0.00, 0.00, 0.00
8936, 100507.82, 23.93, 0.06, -0.37, -0.92, 9.98, 10.03, 0.00, 0.00, 0.00
9189, 100507.82, 36.13, 0.06, -0.36, -0.92, 9.97, 10.02, 0.00, 0.00, 0.00
9443, 100616.32, 42.48, 0.00, -0.36, -0.92, 9.96, 10.01, 0.00, 0.00, 0.00
9740, 100616.32, 23.93, 0.00, -0.35, -0.92, 9.96, 10.01, 0.00, 0.00, 0.00
10012, 100616.32, 47.85, 0.00, -0.37, -0.92, 10.01, 10.06, 0.00, 0.00, 0.00
10340, 100616.32, 23.93, 0.00, -0.37, -0.92, 9.93, 9.98, 0.00, 0.00, 0.00
10612, 100616.32, 24.41, 0.00, -0.37, -0.92, 9.97, 10.02, 0.00, 0.00, 0.00
10939, 100616.32, 24.41, 0.00, -0.37, -0.92, 9.96, 10.01, 0.00, 0.00, 0.00
11211, 100616.32, 23.93, 0.00, -0.36, -0.92, 9.98, 10.03, 0.00, 0.00, 0.00
11541, 100507.82, 54.69, 0.06, -0.37, -0.91, 9.97, 10.02, 0.00, 0.00, 0.00
11813, 100507.82, 23.44, 0.06, -0.36, -0.92, 9.97, 10.02, 0.00, 0.00, 0.00
12138, 100507.82, 33.20, 0.06, -0.37, -0.92, 9.97, 10.02, 0.00, 0.00, 0.00
12411, 100507.82, 27.34, 0.06, -0.37, -0.92, 9.96, 10.01, 0.00, 0.00, 0.00
12737, 100507.82, 24.41, 0.06, -0.36, -0.92, 9.96, 10.01, 0.00, 0.00, 0.00
13010, 100616.32, 53.71, 0.00, -0.37, -0.92, 9.98, 10.03, 0.00, 0.00, 0.00
13336, 100616.32, 23.44, 0.00, -0.37, -0.92, 9.97, 10.02, 0.00, 0.00, 0.00
13612, 100616.32, 55.66, 0.00, -0.37, -0.91, 9.97, 10.02, 0.00, 0.00, 0.00
13936, 100616.32, 29.30, 0.00, -0.37, -0.92, 9.97, 10.02, 0.00, 0.00, 0.00
14209, 100616.32, 33.20, 0.00, -0.36, -0.91, 9.97, 10.02, 0.00, 0.00, 0.00
14535, 100507.82, 23.44, 0.06, -0.37, -0.92, 9.97, 10.02, 0.00, 0.00, 0.00
14808, 100507.82, 47.36, 0.06, -0.37, -0.92, 9.97, 10.02, 0.00, 0.00, 0.00
15135, 100507.82, 55.66, 0.06, -0.37, -0.92, 9.96, 10.01, 0.00, 0.00, 0.00
15410, 100507.82, 25.88, 0.06, -0.37, -0.91, 9.97, 10.02, 0.00, 0.00, 0.00
15734, 100507.82, 43.95, 0.06, -0.36, -0.92, 9.97, 10.02, 0.00, 0.00, 0.00
16007, 100616.32, 27.83, 0.00, -0.37, -0.92, 9.97, 10.02, 0.00, 0.00, 0.00
16333, 100616.32, 48.83, 0.00, -0.37, -0.92, 9.97, 10.02, 0.00, 0.00, 0.00
16606, 100507.82, 26.37, 0.06, -0.36, -0.91, 9.98, 10.03, 0.00, 0.00, 0.00
16933, 100507.82, 23.93, 0.06, -0.36, -0.92, 9.97, 10.02, 0.00, 0.00, 0.00
17206, 100507.82, 23.44, 0.06, -0.37, -0.92, 9.97, 10.02, 0.00, 0.00, 0.00
17534, 100616.32, 26.37, 0.00, -0.37, -0.92, 9.97, 10.02, 0.00, 0.00, 0.00
17807, 100616.32, 24.90, 0.00, -0.37, -0.92, 9.97, 10.02, 0.00, 0.00, 0.00
18131, 100507.82, 26.37, 0.06, -0.37, -0.91, 9.97, 10.02, 0.00, 0.00, 0.00
18404, 100616.32, 24.41, 0.00, -0.37, -0.91, 9.97, 10.02, 0.00, 0.00, 0.00
18731, 100507.82, 37.60, 0.06, -0.37, -0.92, 9.97, 10.02, 0.00, 0.00, 0.00
19004, 100507.82, 36.62, 0.06, -0.36, -0.92, 9.96, 10.01, 0.00, 0.00, 0.00
19331, 100507.82, 40.04, 0.06, -0.37, -0.91, 9.97, 10.02, 0.00, 0.00, 0.00
19606, 100616.32, 54.20, 0.00, -0.37, -0.92, 9.97, 10.02, 0.00, 0.00, 0.00
19930, 100507.82, 40.53, 0.06, -0.36, -0.92, 9.97, 10.02, 0.00, 0.00, 0.00
20202, 100616.32, 24.41, 0.00, -0.37, -0.91, 9.97, 10.02, 0.00, 0.00, 0.00
20529, 100507.82, 24.90, 0.06, -0.36, -0.92, 9.96, 10.01, 0.00, 0.00, 0.00
20801, 100507.82, 36.13, 0.06, -0.37, -0.92, 9.98, 10.03, 0.00, 0.00, 0.00
21129, 100507.82, 37.11, 0.06, -0.37, -0.92, 9.96, 10.01, 0.00, 0.00, 0.00
21401, 100507.82, 55.66, 0.06, -0.36, -0.91, 9.97, 10.02, 0.00, 0.00, 0.00
21730, 100507.82, 45.41, 0.06, -0.38, -0.92, 9.97, 10.02, 0.00, 0.00, 0.00
22003, 100507.82, 28.81, 0.06, -0.37, -0.92, 9.97, 10.02, 0.00, 0.00, 0.00
22327, 100507.82, 24.41, 0.06, -0.36, -0.91, 9.98, 10.03, 0.00, 0.00, 0.00
22600, 100616.32, 27.83, 0.00, -0.37, -0.92, 9.97, 10.02, 0.00, 0.00, 0.00
22926, 100507.82, 24.41, 0.06, -0.37, -0.92, 9.96, 10.01, 0.00, 0.00, 0.00
23198, 100507.82, 24.41, 0.06, -0.36, -0.92, 9.97, 10.02, 0.00, 0.00, 0.00
23528, 100507.82, 26.86, 0.06, -0.37, -0.91, 9.97, 10.02, 0.00, 0.00, 0.00
23800, 100616.32, 34.18, 0.00, -0.37, -0.91, 9.97, 10.02, 0.00, 0.00, 0.00
24125, 100507.82, 38.57, 0.06, -0.37, -0.91, 9.97, 10.02, 0.00, 0.00, 0.00
24397, 100507.82, 24.41, 0.06, -0.36, -0.92, 9.97, 10.02, 0.00, 0.00, 0.00
24724, 100616.32, 39.06, 0.00, -0.37, -0.91, 9.97, 10.02, 0.00, 0.00, 0.00
24996, 100507.82, 56.15, 0.06, -0.37, -0.92, 9.97, 10.02, 0.00, 0.00, 0.00
25324, 100616.32, 34.67, 0.00, -0.37, -0.92, 9.97, 10.02, 0.00, 0.00, 0.00
25598, 100616.32, 52.25, 0.00, -0.36, -0.92, 9.97, 10.02, 0.00, 0.00, 0.00
25923, 100616.32, 23.93, 0.00, -0.37, -0.92, 9.97, 10.02, 0.00, 0.00, 0.00
26195, 100507.82, 24.41, 0.06, -0.36, -0.91, 9.98, 10.03, 0.00, 0.00, 0.00
26522, 100507.82, 55.18, 0.06, -0.36, -0.92, 9.98, 10.03, 0.00, 0.00, 0.00
26796, 100616.32, 25.88, 0.00, -0.36, -0.91, 9.98, 10.03, 0.00, 0.00, 0.00
27121, 100507.82, 23.93, 0.06, -0.36, -0.92, 9.97, 10.02, 0.00, 0.00, 0.00
27394, 100616.32, 24.90, 0.00, -0.36, -0.92, 9.97, 10.02, 0.00, 0.00, 0.00
27723, 100507.82, 23.93, 0.06, -0.37, -0.92, 9.97, 10.02, 0.00, 0.00, 0.00
27996, 100616.32, 25.88, 0.00, -0.36, -0.92, 9.96, 10.01, 0.00, 0.00, 0.00
28320, 100616.32, 25.39, 0.00, -0.36, -0.92, 9.97, 10.02, 0.00, 0.00, 0.00
28593, 100507.82, 25.39, 0.06, -0.36, -0.92, 9.97, 10.02, 0.00, 0.00, 0.00
28919, 100507.82, 24.90, 0.06, -0.36, -0.92, 9.98, 10.03, 0.00, 0.00, 0.00
29193, 100616.32, 27.83, 0.00, -0.36, -0.91, 9.98, 10.03, 0.00, 0.00, 0.00
29518, 100616.32, 25.88, 0.00, -0.36, -0.91, 9.97, 10.02, 0.00, 0.00, 0.00
29794, 100507.82, 30.76, 0.06, -0.36, -0.92, 9.97, 10.02, 0.00, 0.00, 0.00
30118, 100616.32, 34.18, 0.00, -0.36, -0.92, 9.97, 10.02, 0.00, 0.00, 0.00
30391, 100507.82, 26.37, 0.06, -0.36, -0.92, 9.97, 10.02, 0.00, 0.00, 0.00
30717, 100616.32, 25.88, 0.00, -0.36, -0.91, 9.97, 10.02, 0.00, 0.00, 0.00
30990, 100616.32, 26.86, 0.00, -0.36, -0.92, 9.97, 10.02, 0.00, 0.00, 0.00
31316, 100507.82, 26.37, 0.06, -0.36, -0.92, 9.97, 10.02, 0.00, 0.00, 0.00
31592, 100616.32, 29.79, 0.00, -0.36, -0.92, 9.97, 10.02, 0.00, 0.00, 0.00
31916, 100616.32, 26.86, 0.00, -0.36, -0.91, 9.97, 10.02, 0.00, 0.00, 0.00
32189, 100616.32, 25.39, 0.00, -0.36, -0.92, 9.97, 10.02, 0.00, 0.00, 0.00
32516, 100507.82, 53.22, 0.06, -0.35, -0.92, 9.97, 10.02, 0.00, 0.00, 0.00
32788, 100507.82, 27.34, 0.06, -0.36, -0.92, 9.97, 10.02, 0.00, 0.00, 0.00
33115, 100507.82, 28.81, 0.06, -0.35, -0.92, 9.97, 10.02, 0.00, 0.00, 0.00
33388, 100507.82, 38.09, 0.06, -0.35, -0.92, 9.97, 10.02, 0.00, 0.00, 0.00
33717, 100507.82, 33.69, 0.06, -0.36, -0.92, 9.97, 10.02, 0.00, 0.00, 0.00
33989, 100507.82, 34.67, 0.06, -0.36, -0.92, 9.97, 10.02, 0.00, 0.00, 0.00
34314, 100507.82, 28.81, 0.06, -0.35, -0.92, 9.97, 10.02, 0.00, 0.00, 0.00
34586, 100507.82, 27.83, 0.06, -0.35, -0.92, 9.97, 10.02, 0.00, 0.00, 0.00
34914, 100616.32, 30.76, 0.00, -0.35, -0.92, 9.97, 10.02, 0.00, 0.00, 0.00
35186, 100507.82, 28.81, 0.06, -0.35, -0.91, 9.97, 10.02, 0.00, 0.00, 0.00
35513, 100507.82, 28.32, 0.06, -0.36, -0.92, 9.97, 10.02, 0.00, 0.00, 0.00
35787, 100507.82, 46.39, 0.06, -0.35, -0.92, 9.96, 10.01, 0.00, 0.00, 0.00
36112, 100616.32, 48.83, 0.00, -0.36, -0.91, 9.97, 10.02, 0.00, 0.00, 0.00
36384, 100616.32, 29.30, 0.00, -0.35, -0.91, 9.97, 10.02, 0.00, 0.00, 0.00
36711, 100507.82, 26.86, 0.06, -0.36, -0.92, 9.98, 10.03, 0.00, 0.00, 0.00
36983, 100507.82, 28.32, 0.06, -0.35, -0.91, 9.98, 10.03, 0.00, 0.00, 0.00
37311, 100616.32, 38.57, 0.00, -0.35, -0.92, 9.97, 10.02, 0.00, 0.00, 0.00
37583, 100616.32, 27.34, 0.00, -0.35, -0.92, 9.98, 10.03, 0.00, 0.00, 0.00
37912, 100507.82, 29.79, 0.06, -0.36, -0.92, 9.97, 10.02, 0.00, 0.00, 0.00
38184, 100507.82, 26.86, 0.06, -0.36, -0.92, 9.97, 10.02, 0.00, 0.00, 0.00
38509, 100616.32, 26.86, 0.00, -0.36, -0.92, 9.97, 10.02, 0.00, 0.00, 0.00
38781, 100616.32, 30.76, 0.00, -0.36, -0.92, 9.97, 10.02, 0.00, 0.00, 0.00
39108, 100616.32, 33.20, 0.00, -0.35, -0.92, 9.96, 10.01, 0.00, 0.00, 0.00
39380, 100616.32, 27.34, 0.00, -0.36, -0.92, 9.98, 10.03, 0.00, 0.00, 0.00
39710, 100507.82, 27.83, 0.06, -0.35, -0.91, 9.97, 10.02, 0.00, 0.00, 0.00
39983, 100507.82, 27.34, 0.06, -0.35, -0.92, 9.98, 10.03, 0.00, 0.00, 0.00
40307, 100507.82, 38.09, 0.06, -0.36, -0.92, 9.98, 10.03, 0.00, 0.00, 0.00
40581, 100616.32, 32.23, 0.00, -0.35, -0.92, 9.97, 10.02, 0.00, 0.00, 0.00
40906, 100616.32, 27.34, 0.00, -0.36, -0.93, 9.98, 10.03, 0.00, 0.00, 0.00
41179, 100616.32, 39.06, 0.00, -0.36, -0.92, 9.98, 10.03, 0.00, 0.00, 0.00
41505, 100616.32, 30.27, 0.00, -0.35, -0.92, 9.97, 10.02, 0.00, 0.00, 0.00
41781, 100507.82, 49.80, 0.06, -0.36, -0.92, 9.97, 10.02, 0.00, 0.00, 0.00
42105, 100616.32, 28.32, 0.00, -0.35, -0.92, 9.97, 10.02, 0.00, 0.00, 0.00
42378, 100616.32, 59.08, 0.00, -0.35, -0.91, 9.97, 10.02, 0.00, 0.00, 0.00
42704, 100616.32, 32.71, 0.00, -0.35, -0.92, 9.97, 10.02, 0.00, 0.00, 0.00
42977, 100507.82, 30.76, 0.06, -0.35, -0.92, 9.97, 10.02, 0.00, 0.00, 0.00
43304, 100616.32, 30.76, 0.00, -0.35, -0.92, 9.98, 10.03, 0.00, 0.00, 0.00
43577, 100616.32, 59.57, 0.00, -0.35, -0.92, 9.98, 10.03, 0.00, 0.00, 0.00
43906, 100616.32, 30.76, 0.00, -0.36, -0.92, 9.99, 10.04, 0.00, 0.00, 0.00
44178, 100507.82, 33.20, 0.06, -0.36, -0.92, 9.98, 10.03, 0.00, 0.00, 0.00
44503, 100616.32, 30.76, 0.00, -0.36, -0.92, 9.97, 10.02, 0.00, 0.00, 0.00
44775, 100507.82, 29.79, 0.06, -0.35, -0.92, 9.97, 10.02, 0.00, 0.00, 0.00
45103, 100507.82, 52.73, 0.06, -0.35, -0.92, 9.97, 10.02, 0.00, 0.00, 0.00
45375, 100616.32, 45.41, 0.00, -0.35, -0.92, 9.97, 10.02, 0.00, 0.00, 0.00
45702, 100616.32, 31.74, 0.00, -0.35, -0.92, 9.97, 10.02, 0.00, 0.00, 0.00
45976, 100616.32, 30.27, 0.00, -0.35, -0.92, 9.97, 10.02, 0.00, 0.00, 0.00
46301, 100507.82, 36.13, 0.06, -0.36, -0.92, 10.00, 10.04, 0.00, 0.00, 0.00
46573, 100616.32, 50.29, 0.00, -0.35, -0.91, 9.97, 10.02, 0.00, 0.00, 0.00
46900, 100616.32, 37.11, 0.00, -0.35, -0.92, 9.97, 10.02, 0.00, 0.00, 0.00
47172, 100616.32, 35.16, 0.00, -0.35, -0.92, 9.97, 10.02, 0.00, 0.00, 0.00
47499, 100616.32, 34.67, 0.00, -0.35, -0.92, 9.97, 10.02, 0.00, 0.00, 0.00
47774, 100616.32, 30.76, 0.00, -0.34, -0.92, 9.97, 10.02, 0.00, 0.00, 0.00
48099, 100507.82, 32.71, 0.06, -0.35, -0.93, 9.97, 10.02, 0.00, 0.00, 0.00
48371, 100616.32, 32.23, 0.00, -0.36, -0.92, 9.97, 10.02, 0.00, 0.00, 0.00
48698, 100616.32, 48.83, 0.00, -0.35, -0.92, 9.98, 10.03, 0.00, 0.00, 0.00
53765, 100616.32, 46.88, 0.00, -0.35, -0.92, 9.97, 10.02, 0.00, 0.00, 0.00
54091, 100616.32, 47.36, 0.00, -0.35, -0.92, 9.98, 10.03, 0.00, 0.00, 0.00

lift test
Time, Pressure, TempC, Height, AccX, AccY, AccZ, AccT, wX, wY, wZ
466, 100616.32, 42.48, 0.00, -0.32, -0.68, 10.04, 10.07, -0.37, 0.92, 58.41
739, 100616.32, 26.86, 0.00, -0.31, -0.67, 10.06, 10.09, -0.06, -0.73, 0.73
970, 100616.32, 36.62, 0.00, -0.32, -0.67, 10.02, 10.05, -0.12, -0.73, 0.73
1243, 100616.32, 20.51, 0.00, -0.33, -0.67, 10.02, 10.05, -0.12, -0.73, 0.79
2022, 100616.32, 39.06, 0.00, -0.29, -0.65, 10.00, 10.03, -0.12, -0.73, 0.79
2459, 100616.32, 35.64, 0.00, -0.30, -0.70, 10.00, 10.03, -0.18, -0.73, 0.85
2733, 100616.32, 28.81, 0.00, -0.33, -0.68, 10.01, 10.03, -0.18, -0.73, 0.85
3050, 100616.32, 43.95, 0.00, -0.30, -0.69, 9.99, 10.02, -0.06, -0.73, 0.73
3322, 100616.32, 43.95, 0.00, -0.31, -0.69, 9.99, 10.02, -0.12, -0.73, 0.73
3647, 100616.32, 17.58, 0.00, -0.29, -0.67, 9.99, 10.02, -0.12, -0.73, 0.79
3919, 100724.83, 17.09, -0.06, -0.26, -0.69, 10.00, 10.03, 0.00, 0.00, 0.00
4246, 100724.83, 31.74, -0.06, -0.30, -0.69, 9.99, 10.02, 0.00, 0.00, 0.00
4519, 100616.32, 43.46, 0.00, -0.29, -0.70, 10.23, 10.25, 0.00, 0.00, 0.00
4848, 100616.32, 29.30, 0.00, -0.32, -0.72, 10.35, 10.38, 0.00, 0.00, 0.00
5121, 100724.83, 20.02, -0.06, -0.31, -0.69, 10.54, 10.57, 0.00, 0.00, 0.00
5445, 100724.83, 18.07, -0.06, -0.31, -0.71, 10.51, 10.54, 0.00, 0.00, 0.00
5718, 100616.32, 41.99, 0.00, -0.33, -0.72, 10.58, 10.61, 0.00, 0.00, 0.00
6044, 100616.32, 17.09, 0.00, -0.32, -0.71, 10.55, 10.58, 0.00, 0.00, 0.00
6317, 100616.32, 28.81, 0.00, -0.32, -0.71, 10.46, 10.48, 0.00, 0.00, 0.00
6643, 100616.32, 22.95, 0.00, -0.32, -0.69, 10.31, 10.34, 0.00, 0.00, 0.00
6919, 100616.32, 17.09, 0.00, -0.27, -0.66, 9.97, 10.00, 0.00, 0.00, 0.00
7243, 100616.32, 18.55, 0.00, -0.33, -0.69, 9.95, 9.98, 0.00, 0.00, 0.00
7515, 100616.32, 33.69, 0.00, -0.30, -0.67, 10.00, 10.03, 0.00, 0.00, 0.00
7842, 100616.32, 26.37, 0.00, -0.29, -0.67, 9.98, 10.01, 0.00, 0.00, 0.00
8115, 100616.32, 22.95, 0.00, -0.29, -0.67, 10.02, 10.04, 0.00, 0.00, 0.00
8441, 100616.32, 41.50, 0.00, -0.30, -0.67, 9.98, 10.01, 0.00, 0.00, 0.00
8715, 100507.82, 28.32, 0.06, -0.32, -0.67, 10.02, 10.04, 0.00, 0.00, 0.00
9044, 100616.32, 17.58, 0.00, -0.29, -0.67, 9.95, 9.98, 0.00, 0.00, 0.00
9316, 100616.32, 17.58, 0.00, -0.30, -0.66, 9.99, 10.02, 0.00, 0.00, 0.00
9640, 100616.32, 43.95, 0.00, -0.28, -0.68, 10.01, 10.03, 0.00, 0.00, 0.00
9913, 100616.32, 44.43, 0.00, -0.30, -0.67, 10.01, 10.03, 0.00, 0.00, 0.00
10241, 100616.32, 34.18, 0.00, -0.29, -0.68, 10.01, 10.03, 0.00, 0.00, 0.00
10513, 100616.32, 22.95, 0.00, -0.31, -0.67, 9.98, 10.00, 0.00, 0.00, 0.00
10840, 100616.32, 44.43, 0.00, -0.29, -0.65, 10.03, 10.05, 0.00, 0.00, 0.00
11115, 100507.82, 42.97, 0.06, -0.31, -0.67, 10.00, 10.02, 0.00, 0.00, 0.00
11440, 100616.32, 21.48, 0.00, -0.30, -0.65, 9.96, 9.99, 0.00, 0.00, 0.00
11712, 100507.82, 43.95, 0.06, -0.29, -0.68, 9.98, 10.01, 0.00, 0.00, 0.00
12039, 100616.32, 39.55, 0.00, -0.30, -0.68, 10.00, 10.03, 0.00, 0.00, 0.00
12311, 100616.32, 26.86, 0.00, -0.29, -0.65, 9.99, 10.02, 0.00, 0.00, 0.00
12638, 100507.82, 17.58, 0.06, -0.30, -0.67, 9.99, 10.02, 0.00, 0.00, 0.00
12913, 100507.82, 27.83, 0.06, -0.29, -0.66, 10.00, 10.03, 0.00, 0.00, 0.00
13238, 100507.82, 17.58, 0.06, -0.28, -0.67, 10.02, 10.04, 0.00, 0.00, 0.00
13511, 100507.82, 41.99, 0.06, -0.28, -0.66, 10.00, 10.02, 0.00, 0.00, 0.00
13837, 100616.32, 32.71, 0.00, -0.30, -0.68, 10.00, 10.03, 0.00, 0.00, 0.00
14110, 100507.82, 42.48, 0.06, -0.28, -0.68, 10.01, 10.03, 0.00, 0.00, 0.00
14437, 100507.82, 22.95, 0.06, -0.30, -0.67, 9.99, 10.02, 0.00, 0.00, 0.00
14709, 100507.82, 37.11, 0.06, -0.29, -0.67, 10.00, 10.03, 0.00, 0.00, 0.00
15039, 100507.82, 27.83, 0.06, -0.30, -0.66, 9.99, 10.02, 0.00, 0.00, 0.00
15311, 100507.82, 43.46, 0.06, -0.30, -0.67, 9.99, 10.01, 0.00, 0.00, 0.00
15635, 100507.82, 30.76, 0.06, -0.30, -0.67, 10.00, 10.02, 0.00, 0.00, 0.00
15908, 100507.82, 27.34, 0.06, -0.31, -0.67, 9.98, 10.01, 0.00, 0.00, 0.00
16235, 100507.82, 18.07, 0.06, -0.30, -0.67, 10.01, 10.04, 0.00, 0.00, 0.00
16508, 100507.82, 22.95, 0.06, -0.31, -0.66, 9.99, 10.01, 0.00, 0.00, 0.00
16834, 100507.82, 17.09, 0.06, -0.30, -0.67, 9.98, 10.01, 0.00, 0.00, 0.00
17110, 100507.82, 17.58, 0.06, -0.31, -0.67, 9.97, 10.00, 0.00, 0.00, 0.00
17433, 100507.82, 22.46, 0.06, -0.30, -0.67, 10.00, 10.02, 0.00, 0.00, 0.00
17707, 100507.82, 33.20, 0.06, -0.31, -0.67, 9.99, 10.01, 0.00, 0.00, 0.00
18032, 100507.82, 17.09, 0.06, -0.30, -0.68, 10.00, 10.03, 0.00, 0.00, 0.00
18306, 100507.82, 36.13, 0.06, -0.31, -0.66, 10.01, 10.03, 0.00, 0.00, 0.00
18632, 100507.82, 40.53, 0.06, -0.30, -0.67, 10.00, 10.03, 0.00, 0.00, 0.00
18908, 100507.82, 17.09, 0.06, -0.32, -0.70, 10.02, 10.05, 0.00, 0.00, 0.00
19231, 100507.82, 40.53, 0.06, -0.24, -0.65, 10.00, 10.02, 0.00, 0.00, 0.00
19505, 100507.82, 18.07, 0.06, -0.32, -0.66, 10.01, 10.03, 0.00, 0.00, 0.00
19830, 100507.82, 44.43, 0.06, -0.28, -0.68, 9.99, 10.02, 0.00, 0.00, 0.00
20104, 100399.31, 43.95, 0.12, -0.32, -0.70, 9.99, 10.02, 0.00, 0.00, 0.00
20430, 100507.82, 21.97, 0.06, -0.31, -0.66, 10.02, 10.05, 0.00, 0.00, 0.00
20703, 100399.31, 17.58, 0.12, -0.31, -0.67, 10.01, 10.03, 0.00, 0.00, 0.00
21031, 100399.31, 17.58, 0.12, -0.30, -0.66, 10.00, 10.03, 0.00, 0.00, 0.00
21305, 100399.31, 29.30, 0.12, -0.31, -0.72, 9.95, 9.98, 0.00, 0.00, 0.00
21628, 100399.31, 29.79, 0.12, -0.33, -0.68, 10.00, 10.02, 0.00, 0.00, 0.00
21902, 100399.31, 17.58, 0.12, -0.29, -0.68, 9.99, 10.01, 0.00, 0.00, 0.00
22227, 100399.31, 17.09, 0.12, -0.33, -0.67, 10.01, 10.03, 0.00, 0.00, 0.00
22501, 100399.31, 17.09, 0.12, -0.31, -0.67, 9.98, 10.01, 0.00, 0.00, 0.00
22828, 100507.82, 18.07, 0.06, -0.29, -0.68, 9.98, 10.00, 0.00, 0.00, 0.00
23102, 100399.31, 17.58, 0.12, -0.27, -0.66, 9.55, 9.57, 0.00, 0.00, 0.00
23427, 100399.31, 17.09, 0.12, -0.27, -0.62, 9.38, 9.40, 0.00, 0.00, 0.00
23699, 100507.82, 19.04, 0.06, -0.26, -0.63, 9.30, 9.33, 0.00, 0.00, 0.00
24026, 100399.31, 19.04, 0.12, -0.29, -0.65, 9.32, 9.35, 0.00, 0.00, 0.00
24299, 100399.31, 39.55, 0.12, -0.28, -0.65, 9.61, 9.64, 0.00, 0.00, 0.00
24626, 100399.31, 44.43, 0.12, -0.29, -0.66, 9.70, 9.73, 0.00, 0.00, 0.00
24898, 100399.31, 17.58, 0.12, -0.31, -0.69, 10.02, 10.04, 0.00, 0.00, 0.00
25228, 100399.31, 33.20, 0.12, -0.30, -0.69, 10.02, 10.04, 0.00, 0.00, 0.00
25500, 100399.31, 20.51, 0.12, -0.31, -0.68, 9.98, 10.01, 0.00, 0.00, 0.00
25825, 100507.82, 42.97, 0.06, -0.31, -0.67, 10.00, 10.02, 0.00, 0.00, 0.00
26097, 100507.82, 36.13, 0.06, -0.29, -0.67, 9.79, 9.82, 0.00, 0.00, 0.00
26424, 100399.31, 24.90, 0.12, -0.30, -0.68, 9.85, 9.88, 0.00, 0.00, 0.00
26696, 100399.31, 44.43, 0.12, -0.31, -0.69, 10.00, 10.03, 0.00, 0.00, 0.00
27026, 100399.31, 24.90, 0.12, -0.31, -0.68, 9.99, 10.02, 0.00, 0.00, 0.00
27298, 100399.31, 44.43, 0.12, -0.30, -0.68, 9.99, 10.01, 0.00, 0.00, 0.00
27622, 100399.31, 42.97, 0.12, -0.30, -0.68, 10.00, 10.02, 0.00, 0.00, 0.00
27895, 100399.31, 19.53, 0.12, -0.30, -0.68, 10.00, 10.02, 0.00, 0.00, 0.00
28222, 100399.31, 43.46, 0.12, -0.30, -0.67, 10.00, 10.02, 0.00, 0.00, 0.00
28495, 100399.31, 40.04, 0.12, -0.29, -0.67, 9.99, 10.01, 0.00, 0.00, 0.00
28821, 100507.82, 17.09, 0.06, -0.31, -0.68, 9.99, 10.02, 0.00, 0.00, 0.00
29096, 100399.31, 29.79, 0.12, -0.29, -0.66, 10.01, 10.04, 0.00, 0.00, 0.00
29421, 100399.31, 42.48, 0.12, -0.32, -0.71, 10.01, 10.04, 0.00, 0.00, 0.00
29693, 100399.31, 23.44, 0.12, -0.29, -0.70, 10.00, 10.03, 0.00, 0.00, 0.00
30020, 100399.31, 17.58, 0.12, -0.31, -0.65, 9.99, 10.02, 0.00, 0.00, 0.00
30294, 100399.31, 43.95, 0.12, -0.30, -0.67, 10.00, 10.02, 0.00, 0.00, 0.00
30619, 100399.31, 44.43, 0.12, -0.30, -0.69, 9.99, 10.02, 0.00, 0.00, 0.00
30893, 100399.31, 17.58, 0.12, -0.29, -0.69, 10.00, 10.02, 0.00, 0.00, 0.00
31221, 100399.31, 29.30, 0.12, -0.30, -0.67, 10.00, 10.03, 0.00, 0.00, 0.00
31494, 100399.31, 22.95, 0.12, -0.31, -0.69, 10.00, 10.02, 0.00, 0.00, 0.00
31818, 100399.31, 21.00, 0.12, -0.31, -0.69, 10.00, 10.03, 0.00, 0.00, 0.00
32092, 100399.31, 41.50, 0.12, -0.29, -0.68, 10.00, 10.02, 0.00, 0.00, 0.00
32417, 100399.31, 28.81, 0.12, -0.31, -0.69, 9.99, 10.02, 0.00, 0.00, 0.00
32691, 100399.31, 44.43, 0.12, -0.31, -0.68, 9.99, 10.02, 0.00, 0.00, 0.00
33019, 100399.31, 43.46, 0.12, -0.31, -0.67, 10.00, 10.03, 0.00, 0.00, 0.00
33292, 100399.31, 40.53, 0.12, -0.32, -0.67, 10.00, 10.03, 0.00, 0.00, 0.00
33616, 100399.31, 17.09, 0.12, -0.30, -0.68, 9.99, 10.02, 0.00, 0.00, 0.00
33890, 100399.31, 41.50, 0.12, -0.29, -0.68, 10.01, 10.03, 0.00, 0.00, 0.00
34215, 100399.31, 35.16, 0.12, -0.30, -0.69, 10.00, 10.02, 0.00, 0.00, 0.00
34489, 100399.31, 17.58, 0.12, -0.31, -0.68, 9.99, 10.02, 0.00, 0.00, 0.00
34816, 100399.31, 28.32, 0.12, -0.30, -0.69, 10.00, 10.02, 0.00, 0.00, 0.00
35091, 100399.31, 41.99, 0.12, -0.31, -0.69, 9.99, 10.02, 0.00, 0.00, 0.00
35415, 100507.82, 43.46, 0.06, -0.31, -0.68, 9.99, 10.02, 0.00, 0.00, 0.00
35687, 100399.31, 25.39, 0.12, -0.29, -0.70, 9.99, 10.02, 0.00, 0.00, 0.00
36014, 100399.31, 19.53, 0.12, -0.29, -0.68, 10.00, 10.02, 0.00, 0.00, 0.00
36287, 100507.82, 42.97, 0.06, -0.30, -0.67, 10.00, 10.03, 0.00, 0.00, 0.00
36614, 100399.31, 21.97, 0.12, -0.30, -0.68, 10.00, 10.03, 0.00, 0.00, 0.00
36886, 100399.31, 41.50, 0.12, -0.30, -0.68, 10.00, 10.03, 0.00, 0.00, 0.00
37215, 100399.31, 34.18, 0.12, -0.31, -0.68, 9.99, 10.02, 0.00, 0.00, 0.00
37488, 100399.31, 42.48, 0.12, -0.31, -0.69, 9.99, 10.02, 0.00, 0.00, 0.00
37812, 100399.31, 30.27, 0.12, -0.30, -0.69, 10.00, 10.02, 0.00, 0.00, 0.00
38085, 100399.31, 33.20, 0.12, -0.30, -0.68, 10.00, 10.02, 0.00, 0.00, 0.00
38412, 100399.31, 17.58, 0.12, -0.31, -0.69, 10.00, 10.02, 0.00, 0.00, 0.00
38684, 100399.31, 41.99, 0.12, -0.29, -0.68, 9.99, 10.02, 0.00, 0.00, 0.00
39013, 100399.31, 43.46, 0.12, -0.31, -0.68, 10.00, 10.02, 0.00, 0.00, 0.00
39285, 100399.31, 42.97, 0.12, -0.31, -0.68, 9.99, 10.01, 0.00, 0.00, 0.00
39610, 100399.31, 44.43, 0.12, -0.31, -0.71, 10.01, 10.04, 0.00, 0.00, 0.00
39883, 100399.31, 17.58, 0.12, -0.30, -0.68, 10.00, 10.02, 0.00, 0.00, 0.00
40210, 100399.31, 38.09, 0.12, -0.32, -0.68, 9.99, 10.02, 0.00, 0.00, 0.00
40482, 100507.82, 44.43, 0.06, -0.31, -0.68, 10.00, 10.03, 0.00, 0.00, 0.00
40809, 100399.31, 17.58, 0.12, -0.31, -0.69, 10.00, 10.03, 0.00, 0.00, 0.00
41084, 100399.31, 34.18, 0.12, -0.30, -0.68, 10.00, 10.02, 0.00, 0.00, 0.00
41408, 100507.82, 19.53, 0.06, -0.30, -0.69, 9.99, 10.02, 0.00, 0.00, 0.00
41681, 100399.31, 17.58, 0.12, -0.30, -0.68, 10.00, 10.02, 0.00, 0.00, 0.00
42008, 100507.82, 19.04, 0.06, -0.30, -0.68, 10.00, 10.03, 0.00, 0.00, 0.00
42280, 100399.31, 21.00, 0.12, -0.30, -0.68, 10.00, 10.02, 0.00, 0.00, 0.00
42607, 100399.31, 44.43, 0.12, -0.30, -0.68, 10.00, 10.02, 0.00, 0.00, 0.00
42881, 100507.82, 44.43, 0.06, -0.30, -0.67, 9.80, 9.83, 0.00, 0.00, 0.00
43209, 100399.31, 21.00, 0.12, -0.29, -0.66, 9.74, 9.76, 0.00, 0.00, 0.00
43482, 100399.31, 17.58, 0.12, -0.28, -0.65, 9.47, 9.50, 0.00, 0.00, 0.00
43805, 100399.31, 42.97, 0.12, -0.31, -0.66, 9.42, 9.45, 0.00, 0.00, 0.00
44079, 100507.82, 27.83, 0.06, -0.29, -0.64, 9.50, 9.53, 0.00, 0.00, 0.00
44405, 100399.31, 20.51, 0.12, -0.27, -0.63, 9.41, 9.43, 0.00, 0.00, 0.00
44678, 100399.31, 36.13, 0.12, -0.30, -0.66, 9.53, 9.56, 0.00, 0.00, 0.00
45004, 100507.82, 22.46, 0.06, -0.30, -0.66, 9.66, 9.69, 0.00, 0.00, 0.00
45280, 100399.31, 43.95, 0.12, -0.32, -0.68, 10.04, 10.07, 0.00, 0.00, 0.00
45604, 100399.31, 32.23, 0.12, -0.29, -0.68, 10.01, 10.03, 0.00, 0.00, 0.00
45877, 100399.31, 19.04, 0.12, -0.28, -0.67, 9.97, 9.99, 0.00, 0.00, 0.00
46203, 100399.31, 39.06, 0.12, -0.33, -0.67, 10.02, 10.05, 0.00, 0.00, 0.00
46476, 100399.31, 41.02, 0.12, -0.27, -0.67, 10.02, 10.05, 0.00, 0.00, 0.00
46802, 100399.31, 19.53, 0.12, -0.35, -0.69, 9.99, 10.02, 0.00, 0.00, 0.00
47078, 100399.31, 21.00, 0.12, -0.32, -0.67, 9.95, 9.98, 0.00, 0.00, 0.00
47401, 100507.82, 17.09, 0.06, -0.29, -0.74, 10.02, 10.05, 0.00, 0.00, 0.00
47675, 100507.82, 17.09, 0.06, -0.33, -0.67, 10.02, 10.05, 0.00, 0.00, 0.00
48002, 100507.82, 28.32, 0.06, -0.32, -0.68, 10.00, 10.02, 0.00, 0.00, 0.00
48274, 100507.82, 18.07, 0.06, -0.33, -0.66, 9.97, 10.00, 0.00, 0.00, 0.00
48601, 100399.31, 19.53, 0.12, -0.29, -0.67, 9.96, 9.99, 0.00, 0.00, 0.00
48874, 100507.82, 44.43, 0.06, -0.28, -0.70, 10.02, 10.04, 0.00, 0.00, 0.00
49203, 100507.82, 23.44, 0.06, -0.33, -0.67, 9.99, 10.02, 0.00, 0.00, 0.00
49475, 100507.82, 20.51, 0.06, -0.29, -0.67, 10.00, 10.03, 0.00, 0.00, 0.00
49800, 100507.82, 41.50, 0.06, -0.30, -0.68, 9.97, 10.00, 0.00, 0.00, 0.00
50072, 100507.82, 21.97, 0.06, -0.31, -0.68, 10.00, 10.02, 0.00, 0.00, 0.00
50399, 100507.82, 17.58, 0.06, -0.32, -0.67, 10.03, 10.06, 0.00, 0.00, 0.00
50672, 100507.82, 26.37, 0.06, -0.31, -0.66, 9.98, 10.01, 0.00, 0.00, 0.00
50999, 100507.82, 17.09, 0.06, -0.32, -0.68, 10.02, 10.05, 0.00, 0.00, 0.00
51273, 100507.82, 28.32, 0.06, -0.29, -0.67, 10.00, 10.02, 0.00, 0.00, 0.00
51598, 100507.82, 29.30, 0.06, -0.31, -0.67, 9.99, 10.01, 0.00, 0.00, 0.00
51871, 100507.82, 18.55, 0.06, -0.29, -0.67, 9.98, 10.01, 0.00, 0.00, 0.00
52197, 100507.82, 21.97, 0.06, -0.29, -0.67, 9.97, 9.99, 0.00, 0.00, 0.00
52470, 100507.82, 21.00, 0.06, -0.31, -0.65, 9.99, 10.01, 0.00, 0.00, 0.00
52797, 100507.82, 31.25, 0.06, -0.27, -0.66, 10.01, 10.03, 0.00, 0.00, 0.00
53071, 100507.82, 17.09, 0.06, -0.30, -0.65, 10.00, 10.03, 0.00, 0.00, 0.00
53396, 100507.82, 17.09, 0.06, -0.27, -0.64, 9.96, 9.98, 0.00, 0.00, 0.00
53668, 100616.32, 17.58, 0.00, -0.29, -0.66, 9.99, 10.01, 0.00, 0.00, 0.00
53995, 100507.82, 17.58, 0.06, -0.29, -0.67, 10.02, 10.04, 0.00, 0.00, 0.00
54267, 100507.82, 25.39, 0.06, -0.29, -0.67, 10.03, 10.06, 0.00, 0.00, 0.00
54594, 100507.82, 44.43, 0.06, -0.30, -0.66, 10.00, 10.02, 0.00, 0.00, 0.00
54867, 100507.82, 35.16, 0.06, -0.27, -0.68, 9.96, 9.99, 0.00, 0.00, 0.00
55196, 100507.82, 39.55, 0.06, -0.31, -0.67, 10.03, 10.06, 0.00, 0.00, 0.00
55469, 100507.82, 23.44, 0.06, -0.26, -0.63, 10.01, 10.03, 0.00, 0.00, 0.00
55793, 100507.82, 42.97, 0.06, -0.30, -0.67, 9.99, 10.01, 0.00, 0.00, 0.00
56066, 100507.82, 20.51, 0.06, -0.29, -0.65, 9.98, 10.00, 0.00, 0.00, 0.00
56392, 100616.32, 18.55, 0.00, -0.28, -0.65, 10.02, 10.04, 0.00, 0.00, 0.00
56665, 100507.82, 30.76, 0.06, -0.33, -0.66, 9.99, 10.01, 0.00, 0.00, 0.00
56991, 100616.32, 44.43, 0.00, -0.27, -0.66, 10.01, 10.03, 0.00, 0.00, 0.00
57267, 100616.32, 39.55, 0.00, -0.29, -0.65, 9.97, 10.00, 0.00, 0.00, 0.00
57590, 100616.32, 19.04, 0.00, -0.29, -0.66, 10.00, 10.03, 0.00, 0.00, 0.00
57864, 100616.32, 44.92, 0.00, -0.29, -0.67, 10.00, 10.02, 0.00, 0.00, 0.00
58190, 100616.32, 19.53, 0.00, -0.33, -0.68, 10.02, 10.04, 0.00, 0.00, 0.00
58463, 100616.32, 41.02, 0.00, -0.31, -0.66, 9.99, 10.01, 0.00, 0.00, 0.00
58789, 100616.32, 39.55, 0.00, -0.31, -0.66, 10.00, 10.03, 0.00, 0.00, 0.00
59062, 100616.32, 36.13, 0.00, -0.30, -0.66, 10.02, 10.05, 0.00, 0.00, 0.00
59386, 100616.32, 19.53, 0.00, -0.30, -0.66, 10.02, 10.04, 0.00, 0.00, 0.00
59660, 100616.32, 39.06, 0.00, -0.32, -0.67, 9.99, 10.01, 0.00, 0.00, 0.00
59988, 100616.32, 41.50, 0.00, -0.30, -0.67, 9.99, 10.02, 0.00, 0.00, 0.00
60261, 100616.32, 17.09, 0.00, -0.29, -0.66, 10.02, 10.04, 0.00, 0.00, 0.00
60588, 100616.32, 17.58, 0.00, -0.32, -0.68, 10.01, 10.03, 0.00, 0.00, 0.00
60860, 100616.32, 17.09, 0.00, -0.27, -0.63, 9.99, 10.01, 0.00, 0.00, 0.00
61190, 100616.32, 43.95, 0.00, -0.33, -0.66, 9.96, 9.99, 0.00, 0.00, 0.00
61462, 100616.32, 18.55, 0.00, -0.32, -0.72, 10.44, 10.47, 0.00, 0.00, 0.00
61787, 100616.32, 17.09, 0.00, -0.33, -0.70, 10.61, 10.64, 0.00, 0.00, 0.00
62059, 100616.32, 38.57, 0.00, -0.33, -0.73, 10.66, 10.69, 0.00, 0.00, 0.00
62386, 100616.32, 41.02, 0.00, -0.32, -0.71, 10.64, 10.67, 0.00, 0.00, 0.00
62658, 100616.32, 21.48, 0.00, -0.33, -0.70, 10.39, 10.42, 0.00, 0.00, 0.00
62986, 100616.32, 23.93, 0.00, -0.29, -0.69, 10.24, 10.26, 0.00, 0.00, 0.00
63260, 100616.32, 19.04, 0.00, -0.31, -0.67, 9.95, 9.98, 0.00, 0.00, 0.00
63585, 100616.32, 21.00, 0.00, -0.30, -0.67, 10.00, 10.03, 0.00, 0.00, 0.00
63857, 100616.32, 19.04, 0.00, -0.30, -0.69, 10.02, 10.04, 0.00, 0.00, 0.00
64184, 100616.32, 25.88, 0.00, -0.32, -0.68, 9.99, 10.02, 0.00, 0.00, 0.00
64456, 100616.32, 23.44, 0.00, -0.30, -0.68, 10.23, 10.26, 0.00, 0.00, 0.00
64784, 100616.32, 44.92, 0.00, -0.30, -0.67, 10.01, 10.04, 0.00, 0.00, 0.00
65056, 100616.32, 23.93, 0.00, -0.31, -0.67, 10.00, 10.02, 0.00, 0.00, 0.00
65385, 100616.32, 41.50, 0.00, -0.30, -0.68, 10.00, 10.03, 0.00, 0.00, 0.00
65657, 100616.32, 41.99, 0.00, -0.31, -0.67, 10.00, 10.02, 0.00, 0.00, 0.00
65982, 100616.32, 39.06, 0.00, -0.31, -0.67, 10.01, 10.03, 0.00, 0.00, 0.00
66254, 100616.32, 17.09, 0.00, -0.29, -0.68, 10.00, 10.02, 0.00, 0.00, 0.00
66581, 100616.32, 34.67, 0.00, -0.32, -0.68, 9.99, 10.02, 0.00, 0.00, 0.00
66854, 100616.32, 42.48, 0.00, -0.31, -0.66, 9.99, 10.02, 0.00, 0.00, 0.00
67183, 100616.32, 21.00, 0.00, -0.28, -0.66, 10.00, 10.02, 0.00, 0.00, 0.00
67456, 100616.32, 41.02, 0.00, -0.32, -0.66, 10.01, 10.03, 0.00, 0.00, 0.00